{
  "status": "active",
  "contained": [{
    "id": "9EAC9107-9242-4179-B7C7-226E1B1C109D",
    "code": {
      "coding": [{
        "display": "Ibuprofen"
      }]
    },
    "resourceType": "Substance"
  }, {
    "code": {
      "coding": [{
        "display": "Ibuprofen-ratiopharm"
      }]
    },
    "id": "8360DBFA-2537-4F9F-B6A0-DCFFE5FF1E39",
    "resourceType": "Medication",
    "form": {
      "coding": [{
        "display": "tablets"
      }]
    },
    "ingredient": [{
      "itemReference": {
        "reference": "#9EAC9107-9242-4179-B7C7-226E1B1C109D"
      },
      "amount": {
        "numerator": {
          "value": 40,
          "unit": "mg"
        }
      }
    }]
  }, {
    "id": "2A96CAD7-DA31-418D-B4BD-18C52AAEB577",
    "name": [{
      "given": ["John"],
      "family": "Doe"
    }],
    "resourceType": "Patient"
  }, {
    "id": "1090A188-DDBD-49FE-88DE-5455E51C3612",
    "name": [{
      "text": "Dr. Bruce Banner, Praxis fuer Allgemeinmedizin"
    }],
    "resourceType": "Practitioner"
  }, {
    "intent": "plan",
    "medicationReference": {
      "reference": "#8360DBFA-2537-4F9F-B6A0-DCFFE5FF1E39"
    },
    "note": [{
      "text": "zur Oralen Einnahme"
    }],
    "id": "0D24DF43-C228-4FE3-871C-5E55A31EE174",
    "subject": {
      "reference": "#2A96CAD7-DA31-418D-B4BD-18C52AAEB577"
    },
    "resourceType": "MedicationRequest",
    "reasonCode": [{
      "coding": [{
        "display": "Erkaeltungsbeschwerden bekaempfen"
      }]
    }],
    "dosageInstruction": [{
      "doseQuantity": {
        "value": 2,
        "unit": "Stueck"
      },
      "timing": {
        "repeat": {
          "when": ["morning"]
        }
      }
    }, {
      "doseQuantity": {
        "value": 2,
        "unit": "Stueck"
      },
      "timing": {
        "repeat": {
          "when": ["evening"]
        }
      }
    }]
  }],
  "intent": "plan",
  "author": [{
    "reference": "#1090A188-DDBD-49FE-88DE-5455E51C3612"
  }],
  "subject": {
    "reference": "#2A96CAD7-DA31-418D-B4BD-18C52AAEB577"
  },
  "activity": [{
    "reference": {
      "reference": "#0D24DF43-C228-4FE3-871C-5E55A31EE174"
    }
  }],
  "resourceType": "CarePlan"
}
